Surface analysis

Generated: Wednesday 07 July 2021 19:41:14

						
Left filename	Left3_2m.jpg					
Left frame number	      0					
Plane definition points	65					
RMS plane fit (mm)	62.654					
X plane direction (unit vector)	[0.9998, 0.0000, -0.0198]					
Y plane direction (unit vector)	[-0.0029, 0.9890, -0.1482]					
Z plane direction (unit vector)	[0.0196, 0.1482, 0.9888]					
Plane shift (mm)	[-1029.0481, -385.8065, -1859.3057]					
						
Transformed coordinates						
X (mm)	Y (mm)	Z (mm)				
854.525	284.778	246.638				
1149.799	539.986	92.046				
870.085	1277.436	183.324				
1051.608	796.525	187.802				
1538.276	1523.308	71.556				
1610.294	590.313	92.465				
1905.823	997.575	144.439				
398.715	951.378	53.137				
0.000	1028.709	157.572				
69.236	533.197	170.667				
275.756	368.831	16.990				
1888.568	127.185	40.029				
778.537	680.453	153.522				
786.355	0.000	88.012				
1290.597	420.274	155.783				
1280.510	989.552	115.120				
270.638	1279.681	112.730				
1914.396	876.876	123.081				
697.569	1016.788	99.796				
1022.409	1073.906	134.541				
524.986	456.002	78.900				
1096.864	136.247	121.887				
1459.821	1023.018	147.904				
1434.843	1210.222	103.152				
1183.553	1428.667	43.029				
2199.051	587.053	97.765				
1834.385	1294.063	48.526				
166.895	1180.917	0.000				
1535.988	334.301	55.074				
1370.447	18.319	10.501				
1132.738	741.850	68.834				
1609.627	224.702	85.465				
605.910	988.608	66.678				
1131.888	641.035	78.855				
371.008	1055.904	45.859				
507.829	1042.662	38.631				
1036.631	862.690	215.146				
41.359	927.128	223.801				
48.418	1087.785	22.876				
865.685	357.222	247.323				
909.023	858.292	111.846				
246.848	582.322	26.941				
666.802	839.818	59.711				
1342.004	308.981	56.200				
956.096	1374.610	112.922				
937.670	727.167	56.456				
1913.791	703.038	91.438				
1194.609	353.213	118.121				
410.820	518.828	42.705				
964.988	589.006	88.617				
1294.957	573.904	142.623				
430.717	857.570	47.664				
1508.991	535.722	65.734				
1599.000	1013.531	81.261				
444.178	1220.475	212.382				
1180.918	456.344	135.613				
213.836	704.917	24.910				
735.006	294.024	239.394				
417.943	419.867	39.559				
966.861	303.932	228.760				
509.079	606.476	98.234				
1302.538	1337.995	61.370				
1284.020	226.776	42.730				
1004.946	175.451	63.328				
1649.874	140.613	88.615				
						
Triangle data						
X centre (mm)	Y centre (mm)	Z centre (mm)	Slope (deg)	Direction (deg)	Plan area (mm^2)	3D area (mm^2)
1543.316	127.878	61.527	14.431	251.968	14209.309	14672.234
1716.023	164.167	71.370	14.184	56.740	9765.539	10072.633
1636.296	95.372	46.382	44.693	171.366	16471.451	23170.137
962.722	103.899	91.076	35.647	328.301	12348.288	15195.516
881.942	153.410	132.660	45.045	136.204	25144.813	35588.375
1055.472	277.532	136.737	52.274	146.240	15569.188	25444.504
1098.806	221.637	101.112	30.398	295.798	11887.454	13782.094
942.111	254.721	179.576	50.992	163.023	7581.285	12044.663
1191.831	238.745	94.246	29.875	112.673	15878.877	18312.399
1273.544	296.323	72.350	26.004	141.129	7340.640	8167.465
1411.884	253.486	61.465	8.508	241.684	13443.340	13592.944
1421.365	156.599	46.232	13.928	212.318	33847.833	34873.159
1250.444	127.114	58.372	22.536	87.613	23419.188	25355.326
1201.819	1133.818	103.677	10.832	40.048	45895.735	46728.374
1169.500	1280.189	79.647	13.802	7.372	28411.338	29256.111
1339.297	1179.256	93.214	12.808	316.243	24457.661	25081.711
1341.456	1429.990	58.652	6.992	305.749	21712.190	21874.874
1425.219	1357.175	78.692	12.799	313.230	27319.408	28015.549
535.533	767.955	68.536	10.949	349.050	28944.269	29480.886
481.629	527.102	73.279	24.045	247.324	8089.837	8858.554
651.473	708.916	103.822	25.802	320.490	25603.916	28439.244
604.201	580.977	110.219	12.428	228.527	20861.500	21362.045
384.544	722.988	56.936	13.766	304.361	33209.974	34192.154
323.254	631.238	50.028	15.240	258.297	16472.910	17073.312
388.916	569.209	55.960	23.612	213.002	10305.312	11246.954
895.690	315.311	240.907	9.578	101.933	3962.089	4018.100
932.511	416.720	188.233	33.606	41.915	14371.308	17255.336
1099.192	433.421	152.140	28.465	5.378	11323.429	12880.642
1027.216	477.642	136.474	26.790	12.820	26296.572	29458.638
1114.129	371.163	160.832	27.388	101.375	12081.416	13606.536
559.312	389.964	119.284	31.187	306.228	12463.923	14569.429
451.250	464.899	53.721	19.440	260.728	5425.265	5753.246
368.173	435.842	33.085	8.512	253.651	7217.308	7297.686
646.435	237.963	122.322	48.248	233.175	43380.963	65145.117
493.352	262.899	48.187	8.715	263.197	39250.936	39709.418
793.076	443.900	213.413	16.726	323.718	23873.683	24928.403
679.510	476.826	157.272	31.582	297.478	44104.469	51772.289
818.405	312.008	244.452	3.469	269.891	4380.754	4388.796
791.962	192.934	191.348	28.470	190.822	17333.340	19717.965
217.970	861.141	100.616	35.523	134.248	41795.515	51353.143
347.756	837.955	41.904	5.241	214.148	12615.230	12668.186
176.640	606.812	74.173	37.954	73.754	11698.044	14835.809
108.144	721.747	139.793	47.182	93.114	30874.661	45425.721
1255.491	483.508	144.673	10.129	300.269	8503.676	8638.299
1208.558	523.412	123.427	29.368	309.768	6598.365	7571.348
1222.041	409.944	136.506	17.872	231.010	5408.799	5683.029
441.005	1106.347	98.958	44.815	182.494	11742.889	16553.720
361.941	1185.353	123.657	45.954	230.551	16445.927	23655.177
670.611	1171.566	165.168	22.745	163.100	50592.550	54858.670
549.859	1093.308	116.937	51.217	202.637	16045.578	25616.620
556.971	1291.589	146.011	50.383	352.102	28528.750	44739.866
756.786	1290.840	169.543	37.015	357.528	18243.996	22848.602
1806.406	962.661	116.260	16.126	228.312	18448.096	19203.672
1707.897	826.907	98.936	7.109	280.722	65968.853	66479.933
1556.372	875.620	107.210	25.786	85.331	29398.075	32649.057
1622.743	1172.605	77.646	7.758	88.994	46174.639	46601.202
1497.888	1082.257	110.772	30.361	58.539	12908.978	14960.707
1779.736	1101.723	91.409	18.626	325.379	44914.685	47397.101
1551.758	486.778	71.091	13.194	249.437	10939.173	11235.772
1421.257	710.881	118.754	19.864	111.909	51210.163	54449.752
1526.369	716.351	102.035	13.897	221.543	26024.418	26809.147
1364.849	509.967	121.380	20.813	78.607	16524.269	17677.827
1445.192	430.099	92.197	22.351	89.695	23552.929	25466.223
567.810	895.332	58.018	5.126	218.858	17023.004	17091.359
514.819	962.947	50.991	14.094	302.954	11161.073	11507.497
445.754	950.537	46.478	8.069	94.088	6578.544	6644.317
1186.528	652.263	96.771	19.982	286.348	8248.407	8776.757
1192.215	584.975	104.508	20.294	280.287	7637.852	8143.371
1345.096	862.158	135.216	11.465	287.037	37506.885	38270.589
1236.068	768.435	108.859	22.007	277.426	32499.937	35054.157
1011.515	652.403	74.643	12.982	356.702	12240.140	12561.199
1082.225	590.009	86.506	7.665	7.198	8898.542	8978.769
893.732	665.542	99.532	31.435	56.878	11631.018	13631.735
869.737	542.227	163.154	35.673	51.936	26148.684	32188.411
311.141	489.993	28.879	7.742	242.425	16585.511	16738.073
1275.737	360.823	110.035	39.771	167.793	7065.120	9192.133
2009.079	722.322	104.094	11.614	207.864	24829.783	25348.744
1812.827	723.409	102.328	11.070	158.694	26345.577	26845.058
2000.470	472.425	76.411	5.941	213.514	83596.809	84048.171
1804.218	473.512	74.644	5.608	157.771	85962.919	86376.390
875.077	755.304	107.275	36.551	111.503	11102.257	13820.297
966.100	793.994	118.701	44.697	233.027	8463.446	11906.393
1040.388	721.576	107.704	48.499	209.269	11642.078	17569.531
1054.019	1292.394	96.831	17.015	64.300	35991.054	37638.491
949.530	1241.984	143.596	31.959	71.102	16153.929	19039.821
1495.873	289.328	65.580	14.576	353.832	11562.468	11946.980
1389.530	354.519	89.019	40.341	172.175	11445.309	15016.009
784.787	792.854	108.360	25.797	329.279	20332.810	22583.506
757.798	904.966	90.451	15.506	226.313	21148.743	21947.569
656.760	948.405	75.395	19.462	240.699	7676.958	8142.159
197.280	494.783	71.533	38.476	85.621	19669.269	25124.554
999.087	839.169	171.598	44.609	233.128	4254.512	5976.104
876.334	982.995	115.394	6.358	241.008	31781.919	31978.608
989.355	931.629	153.844	41.453	291.684	13507.639	18022.317
153.595	1023.605	97.512	51.328	2.391	26025.631	41650.155
195.440	1108.202	22.912	16.784	352.048	16910.304	17662.712
29.926	1014.540	134.750	60.729	48.063	3680.809	7528.193
161.984	1182.794	45.202	84.249	140.954	1019.807	10177.637
36.865	829.678	184.014	67.022	262.682	6730.364	17240.763
270.360	978.137	107.599	26.698	67.462	19012.331	21281.151
1073.659	800.355	157.261	54.558	93.918	2274.564	3922.515
1149.960	864.697	133.034	44.002	130.384	20831.373	28960.046
1113.183	975.383	154.936	23.995	27.345	26657.623	29179.363
425.851	1016.648	45.876	6.016	35.461	6967.219	7005.800
603.769	1016.019	68.368	19.069	255.288	3859.273	4083.333
269.514	1172.167	52.863	38.206	225.575	16564.146	21079.626
1105.411	726.470	111.831	56.783	86.751	4112.778	7507.631
1585.303	383.105	77.668	23.768	267.613	13498.181	14749.169
1702.830	314.067	72.653	8.939	97.096	51024.558	51651.952
1084.555	51.522	73.467	31.486	165.696	36946.210	43325.209
1602.502	1342.531	74.411	7.849	64.243	58209.507	58759.948
1979.753	959.564	96.910	47.016	59.409	28806.148	42250.412
2006.423	820.501	121.761	11.782	208.131	15936.451	16279.406
1391.725	1074.264	122.059	16.970	313.343	17201.807	17984.884
863.354	1122.710	139.220	16.082	191.459	37407.662	38931.221
						
Total plan area (mm^2)	2431183.911					
Total 3D area (mm^2)	2763081.597					
						
Slope bitmap	Double click to view	Darkest: 0 degree slope	Brightest: 90 degree slope			
Slope direction bitmap	Double click to view	0 deg = red, 120 deg = green, 240 deg = blue				
Surface bitmap	Double click to view	Darkest: z = 0.000 (mm)	Lightest: z = 247.323 (mm)			
